"rt","stimulus","response","trial_type","trial_index","time_elapsed","internal_node_id","task","correct_response","word","color","congruency","correct"
"1859","Welcome to the experiment. Press any key to begin."," ","html-keyboard-response","0","1861","0.0-0.0","","","","","",""
"784","
    <p>In this task, you will see word in a color</p>
    <p style='color:red;font-size:60pt;'>BLUE</p>
    <p>Press r, g, b, or y to identify the color, not the word</p>
    <p>E.g., press r for red in this example</p>
    <p>Make your responses as quickly and accurately as possible</p>
    <p>Press any key to begin.</p>
    "," ","html-keyboard-response","1","2647","0.0-1.0","","","","","",""
"null","<div style=""font-size:60px;"">+</div>","null","html-keyboard-response","2","5651","0.0-2.0-0.0","fixation","","","","",""
"842","<p style='color:red;font-size:60pt;'>GREEN</p>","r","html-keyboard-response","3","6495","0.0-2.0-1.0","stroop","r","GREEN","red","Incongruent","true"
"null","<div style=""font-size:60px;"">+</div>","null","html-keyboard-response","4","8501","0.0-2.0-0.1","fixation","","","","",""
"535","<p style='color:yellow;font-size:60pt;'>RED</p>","y","html-keyboard-response","5","9038","0.0-2.0-1.1","stroop","y","RED","yellow","Incongruent","true"
"null","<div style=""font-size:60px;"">+</div>","null","html-keyboard-response","6","11041","0.0-2.0-0.2","fixation","","","","",""
"605","<p style='color:blue;font-size:60pt;'>YELLOW</p>","b","html-keyboard-response","7","11648","0.0-2.0-1.2","stroop","b","YELLOW","blue","Incongruent","true"
"null","<div style=""font-size:60px;"">+</div>","null","html-keyboard-response","8","13650","0.0-2.0-0.3","fixation","","","","",""
"741","<p style='color:green;font-size:60pt;'>RED</p>","g","html-keyboard-response","9","14393","0.0-2.0-1.3","stroop","g","RED","green","Incongruent","true"
"null","<div style=""font-size:60px;"">+</div>","null","html-keyboard-response","10","15396","0.0-2.0-0.4","fixation","","","","",""
"525","<p style='color:yellow;font-size:60pt;'>YELLOW</p>","y","html-keyboard-response","11","15923","0.0-2.0-1.4","stroop","y","YELLOW","yellow","Congruent","true"
"null","<div style=""font-size:60px;"">+</div>","null","html-keyboard-response","12","17926","0.0-2.0-0.5","fixation","","","","",""
"640","<p style='color:blue;font-size:60pt;'>GREEN</p>","b","html-keyboard-response","13","18567","0.0-2.0-1.5","stroop","b","GREEN","blue","Incongruent","true"
"null","<div style=""font-size:60px;"">+</div>","null","html-keyboard-response","14","19570","0.0-2.0-0.6","fixation","","","","",""
"650","<p style='color:red;font-size:60pt;'>RED</p>","r","html-keyboard-response","15","20221","0.0-2.0-1.6","stroop","r","RED","red","Congruent","true"
"null","<div style=""font-size:60px;"">+</div>","null","html-keyboard-response","16","21223","0.0-2.0-0.7","fixation","","","","",""
"437","<p style='color:green;font-size:60pt;'>BLUE</p>","b","html-keyboard-response","17","21661","0.0-2.0-1.7","stroop","g","BLUE","green","Incongruent","false"
"null","<div style=""font-size:60px;"">+</div>","null","html-keyboard-response","18","23664","0.0-2.0-0.8","fixation","","","","",""
"1101","<p style='color:green;font-size:60pt;'>GREEN</p>","g","html-keyboard-response","19","24766","0.0-2.0-1.8","stroop","g","GREEN","green","Congruent","true"
"null","<div style=""font-size:60px;"">+</div>","null","html-keyboard-response","20","26768","0.0-2.0-0.9","fixation","","","","",""
"584","<p style='color:yellow;font-size:60pt;'>BLUE</p>","y","html-keyboard-response","21","27353","0.0-2.0-1.9","stroop","y","BLUE","yellow","Incongruent","true"
"null","<div style=""font-size:60px;"">+</div>","null","html-keyboard-response","22","29355","0.0-2.0-0.10","fixation","","","","",""
"877","<p style='color:green;font-size:60pt;'>YELLOW</p>","g","html-keyboard-response","23","30234","0.0-2.0-1.10","stroop","g","YELLOW","green","Incongruent","true"
"null","<div style=""font-size:60px;"">+</div>","null","html-keyboard-response","24","32236","0.0-2.0-0.11","fixation","","","","",""
"696","<p style='color:blue;font-size:60pt;'>RED</p>","b","html-keyboard-response","25","32933","0.0-2.0-1.11","stroop","b","RED","blue","Incongruent","true"
"null","<div style=""font-size:60px;"">+</div>","null","html-keyboard-response","26","34936","0.0-2.0-0.12","fixation","","","","",""
"718","<p style='color:red;font-size:60pt;'>BLUE</p>","r","html-keyboard-response","27","35656","0.0-2.0-1.12","stroop","r","BLUE","red","Incongruent","true"
"null","<div style=""font-size:60px;"">+</div>","null","html-keyboard-response","28","36658","0.0-2.0-0.13","fixation","","","","",""
"661","<p style='color:blue;font-size:60pt;'>BLUE</p>","b","html-keyboard-response","29","37321","0.0-2.0-1.13","stroop","b","BLUE","blue","Congruent","true"
"null","<div style=""font-size:60px;"">+</div>","null","html-keyboard-response","30","39323","0.0-2.0-0.14","fixation","","","","",""
"696","<p style='color:red;font-size:60pt;'>YELLOW</p>","r","html-keyboard-response","31","40020","0.0-2.0-1.14","stroop","r","YELLOW","red","Incongruent","true"
"null","<div style=""font-size:60px;"">+</div>","null","html-keyboard-response","32","42023","0.0-2.0-0.15","fixation","","","","",""
"607","<p style='color:yellow;font-size:60pt;'>GREEN</p>","y","html-keyboard-response","33","42631","0.0-2.0-1.15","stroop","y","GREEN","yellow","Incongruent","true"
"null","<div style=""font-size:60px;"">+</div>","null","html-keyboard-response","34","43634","0.0-2.0-0.16","fixation","","","","",""
"592","<p style='color:yellow;font-size:60pt;'>YELLOW</p>","y","html-keyboard-response","35","44228","0.0-2.0-1.16","stroop","y","YELLOW","yellow","Congruent","true"
"null","<div style=""font-size:60px;"">+</div>","null","html-keyboard-response","36","46231","0.0-2.0-0.17","fixation","","","","",""
"807","<p style='color:red;font-size:60pt;'>YELLOW</p>","r","html-keyboard-response","37","47040","0.0-2.0-1.17","stroop","r","YELLOW","red","Incongruent","true"
"null","<div style=""font-size:60px;"">+</div>","null","html-keyboard-response","38","48042","0.0-2.0-0.18","fixation","","","","",""
"526","<p style='color:red;font-size:60pt;'>GREEN</p>","r","html-keyboard-response","39","48570","0.0-2.0-1.18","stroop","r","GREEN","red","Incongruent","true"
"null","<div style=""font-size:60px;"">+</div>","null","html-keyboard-response","40","50572","0.0-2.0-0.19","fixation","","","","",""
"697","<p style='color:yellow;font-size:60pt;'>RED</p>","y","html-keyboard-response","41","51270","0.0-2.0-1.19","stroop","y","RED","yellow","Incongruent","true"
"null","<div style=""font-size:60px;"">+</div>","null","html-keyboard-response","42","52272","0.0-2.0-0.20","fixation","","","","",""
"999","<p style='color:green;font-size:60pt;'>GREEN</p>","g","html-keyboard-response","43","53272","0.0-2.0-1.20","stroop","g","GREEN","green","Congruent","true"
"null","<div style=""font-size:60px;"">+</div>","null","html-keyboard-response","44","55274","0.0-2.0-0.21","fixation","","","","",""
"697","<p style='color:blue;font-size:60pt;'>YELLOW</p>","b","html-keyboard-response","45","55972","0.0-2.0-1.21","stroop","b","YELLOW","blue","Incongruent","true"
"null","<div style=""font-size:60px;"">+</div>","null","html-keyboard-response","46","57975","0.0-2.0-0.22","fixation","","","","",""
"719","<p style='color:red;font-size:60pt;'>RED</p>","r","html-keyboard-response","47","58695","0.0-2.0-1.22","stroop","r","RED","red","Congruent","true"
"null","<div style=""font-size:60px;"">+</div>","null","html-keyboard-response","48","60698","0.0-2.0-0.23","fixation","","","","",""
"877","<p style='color:green;font-size:60pt;'>RED</p>","g","html-keyboard-response","49","61576","0.0-2.0-1.23","stroop","g","RED","green","Incongruent","true"
"null","<div style=""font-size:60px;"">+</div>","null","html-keyboard-response","50","62579","0.0-2.0-0.24","fixation","","","","",""
"548","<p style='color:yellow;font-size:60pt;'>GREEN</p>","y","html-keyboard-response","51","63129","0.0-2.0-1.24","stroop","y","GREEN","yellow","Incongruent","true"
"null","<div style=""font-size:60px;"">+</div>","null","html-keyboard-response","52","64131","0.0-2.0-0.25","fixation","","","","",""
"1313","<p style='color:red;font-size:60pt;'>BLUE</p>","r","html-keyboard-response","53","65446","0.0-2.0-1.25","stroop","r","BLUE","red","Incongruent","true"
"null","<div style=""font-size:60px;"">+</div>","null","html-keyboard-response","54","67449","0.0-2.0-0.26","fixation","","","","",""
"1281","<p style='color:blue;font-size:60pt;'>RED</p>","b","html-keyboard-response","55","68731","0.0-2.0-1.26","stroop","b","RED","blue","Incongruent","true"
"null","<div style=""font-size:60px;"">+</div>","null","html-keyboard-response","56","69734","0.0-2.0-0.27","fixation","","","","",""
"503","<p style='color:yellow;font-size:60pt;'>BLUE</p>","y","html-keyboard-response","57","70238","0.0-2.0-1.27","stroop","y","BLUE","yellow","Incongruent","true"
"null","<div style=""font-size:60px;"">+</div>","null","html-keyboard-response","58","71241","0.0-2.0-0.28","fixation","","","","",""
"481","<p style='color:blue;font-size:60pt;'>BLUE</p>","b","html-keyboard-response","59","71723","0.0-2.0-1.28","stroop","b","BLUE","blue","Congruent","true"
"null","<div style=""font-size:60px;"">+</div>","null","html-keyboard-response","60","73725","0.0-2.0-0.29","fixation","","","","",""
"922","<p style='color:green;font-size:60pt;'>BLUE</p>","g","html-keyboard-response","61","74648","0.0-2.0-1.29","stroop","g","BLUE","green","Incongruent","true"
"null","<div style=""font-size:60px;"">+</div>","null","html-keyboard-response","62","75651","0.0-2.0-0.30","fixation","","","","",""
"549","<p style='color:blue;font-size:60pt;'>GREEN</p>","b","html-keyboard-response","63","76201","0.0-2.0-1.30","stroop","b","GREEN","blue","Incongruent","true"
"null","<div style=""font-size:60px;"">+</div>","null","html-keyboard-response","64","78203","0.0-2.0-0.31","fixation","","","","",""
"945","<p style='color:green;font-size:60pt;'>YELLOW</p>","g","html-keyboard-response","65","79150","0.0-2.0-1.31","stroop","g","YELLOW","green","Incongruent","true"
"null","<div style=""font-size:60px;"">+</div>","null","html-keyboard-response","66","81153","0.0-2.0-0.32","fixation","","","","",""
"515","<p style='color:red;font-size:60pt;'>RED</p>","r","html-keyboard-response","67","81669","0.0-2.0-1.32","stroop","r","RED","red","Congruent","true"
"null","<div style=""font-size:60px;"">+</div>","null","html-keyboard-response","68","83671","0.0-2.0-0.33","fixation","","","","",""
"541","<p style='color:yellow;font-size:60pt;'>RED</p>","y","html-keyboard-response","69","84213","0.0-2.0-1.33","stroop","y","RED","yellow","Incongruent","true"
"null","<div style=""font-size:60px;"">+</div>","null","html-keyboard-response","70","85216","0.0-2.0-0.34","fixation","","","","",""
"480","<p style='color:blue;font-size:60pt;'>BLUE</p>","b","html-keyboard-response","71","85697","0.0-2.0-1.34","stroop","b","BLUE","blue","Congruent","true"
"null","<div style=""font-size:60px;"">+</div>","null","html-keyboard-response","72","86698","0.0-2.0-0.35","fixation","","","","",""
"627","<p style='color:yellow;font-size:60pt;'>BLUE</p>","y","html-keyboard-response","73","87327","0.0-2.0-1.35","stroop","y","BLUE","yellow","Incongruent","true"
"null","<div style=""font-size:60px;"">+</div>","null","html-keyboard-response","74","89329","0.0-2.0-0.36","fixation","","","","",""
"607","<p style='color:red;font-size:60pt;'>YELLOW</p>","r","html-keyboard-response","75","89937","0.0-2.0-1.36","stroop","r","YELLOW","red","Incongruent","true"
"null","<div style=""font-size:60px;"">+</div>","null","html-keyboard-response","76","90939","0.0-2.0-0.37","fixation","","","","",""
"719","<p style='color:green;font-size:60pt;'>RED</p>","g","html-keyboard-response","77","91659","0.0-2.0-1.37","stroop","g","RED","green","Incongruent","true"
"null","<div style=""font-size:60px;"">+</div>","null","html-keyboard-response","78","92662","0.0-2.0-0.38","fixation","","","","",""
"480","<p style='color:green;font-size:60pt;'>YELLOW</p>","g","html-keyboard-response","79","93144","0.0-2.0-1.38","stroop","g","YELLOW","green","Incongruent","true"
"null","<div style=""font-size:60px;"">+</div>","null","html-keyboard-response","80","94146","0.0-2.0-0.39","fixation","","","","",""
"550","<p style='color:yellow;font-size:60pt;'>YELLOW</p>","y","html-keyboard-response","81","94698","0.0-2.0-1.39","stroop","y","YELLOW","yellow","Congruent","true"
"null","<div style=""font-size:60px;"">+</div>","null","html-keyboard-response","82","95700","0.0-2.0-0.40","fixation","","","","",""
"593","<p style='color:blue;font-size:60pt;'>GREEN</p>","b","html-keyboard-response","83","96294","0.0-2.0-1.40","stroop","b","GREEN","blue","Incongruent","true"
"null","<div style=""font-size:60px;"">+</div>","null","html-keyboard-response","84","98296","0.0-2.0-0.41","fixation","","","","",""
"651","<p style='color:red;font-size:60pt;'>GREEN</p>","r","html-keyboard-response","85","98949","0.0-2.0-1.41","stroop","r","GREEN","red","Incongruent","true"
"null","<div style=""font-size:60px;"">+</div>","null","html-keyboard-response","86","99951","0.0-2.0-0.42","fixation","","","","",""
"593","<p style='color:blue;font-size:60pt;'>YELLOW</p>","b","html-keyboard-response","87","100546","0.0-2.0-1.42","stroop","b","YELLOW","blue","Incongruent","true"
"null","<div style=""font-size:60px;"">+</div>","null","html-keyboard-response","88","101548","0.0-2.0-0.43","fixation","","","","",""
"617","<p style='color:green;font-size:60pt;'>BLUE</p>","g","html-keyboard-response","89","102166","0.0-2.0-1.43","stroop","g","BLUE","green","Incongruent","true"
"null","<div style=""font-size:60px;"">+</div>","null","html-keyboard-response","90","104168","0.0-2.0-0.44","fixation","","","","",""
"518","<p style='color:green;font-size:60pt;'>GREEN</p>","g","html-keyboard-response","91","104687","0.0-2.0-1.44","stroop","g","GREEN","green","Congruent","true"
"null","<div style=""font-size:60px;"">+</div>","null","html-keyboard-response","92","106689","0.0-2.0-0.45","fixation","","","","",""
"798","<p style='color:blue;font-size:60pt;'>RED</p>","b","html-keyboard-response","93","107488","0.0-2.0-1.45","stroop","b","RED","blue","Incongruent","true"
"null","<div style=""font-size:60px;"">+</div>","null","html-keyboard-response","94","108490","0.0-2.0-0.46","fixation","","","","",""
"560","<p style='color:yellow;font-size:60pt;'>GREEN</p>","y","html-keyboard-response","95","109051","0.0-2.0-1.46","stroop","y","GREEN","yellow","Incongruent","true"
"null","<div style=""font-size:60px;"">+</div>","null","html-keyboard-response","96","111053","0.0-2.0-0.47","fixation","","","","",""
"629","<p style='color:red;font-size:60pt;'>BLUE</p>","r","html-keyboard-response","97","111684","0.0-2.0-1.47","stroop","r","BLUE","red","Incongruent","true"
"null","<div style=""font-size:60px;"">+</div>","null","html-keyboard-response","98","113686","0.0-2.0-0.48","fixation","","","","",""
"674","<p style='color:green;font-size:60pt;'>RED</p>","g","html-keyboard-response","99","114361","0.0-2.0-1.48","stroop","g","RED","green","Incongruent","true"
"null","<div style=""font-size:60px;"">+</div>","null","html-keyboard-response","100","116363","0.0-2.0-0.49","fixation","","","","",""
"585","<p style='color:yellow;font-size:60pt;'>GREEN</p>","y","html-keyboard-response","101","116950","0.0-2.0-1.49","stroop","y","GREEN","yellow","Incongruent","true"
"null","<div style=""font-size:60px;"">+</div>","null","html-keyboard-response","102","117953","0.0-2.0-0.50","fixation","","","","",""
"649","<p style='color:red;font-size:60pt;'>GREEN</p>","g","html-keyboard-response","103","118603","0.0-2.0-1.50","stroop","r","GREEN","red","Incongruent","false"
"null","<div style=""font-size:60px;"">+</div>","null","html-keyboard-response","104","119605","0.0-2.0-0.51","fixation","","","","",""
"988","<p style='color:green;font-size:60pt;'>GREEN</p>","g","html-keyboard-response","105","120594","0.0-2.0-1.51","stroop","g","GREEN","green","Congruent","true"
"null","<div style=""font-size:60px;"">+</div>","null","html-keyboard-response","106","121596","0.0-2.0-0.52","fixation","","","","",""
"1314","<p style='color:red;font-size:60pt;'>YELLOW</p>","r","html-keyboard-response","107","122912","0.0-2.0-1.52","stroop","r","YELLOW","red","Incongruent","true"
"null","<div style=""font-size:60px;"">+</div>","null","html-keyboard-response","108","123914","0.0-2.0-0.53","fixation","","","","",""
"593","<p style='color:blue;font-size:60pt;'>BLUE</p>","b","html-keyboard-response","109","124509","0.0-2.0-1.53","stroop","b","BLUE","blue","Congruent","true"
"null","<div style=""font-size:60px;"">+</div>","null","html-keyboard-response","110","126511","0.0-2.0-0.54","fixation","","","","",""
"584","<p style='color:yellow;font-size:60pt;'>BLUE</p>","y","html-keyboard-response","111","127097","0.0-2.0-1.54","stroop","y","BLUE","yellow","Incongruent","true"
"null","<div style=""font-size:60px;"">+</div>","null","html-keyboard-response","112","129099","0.0-2.0-0.55","fixation","","","","",""
"764","<p style='color:green;font-size:60pt;'>YELLOW</p>","g","html-keyboard-response","113","129865","0.0-2.0-1.55","stroop","g","YELLOW","green","Incongruent","true"
"null","<div style=""font-size:60px;"">+</div>","null","html-keyboard-response","114","131867","0.0-2.0-0.56","fixation","","","","",""
"563","<p style='color:blue;font-size:60pt;'>GREEN</p>","b","html-keyboard-response","115","132431","0.0-2.0-1.56","stroop","b","GREEN","blue","Incongruent","true"
"null","<div style=""font-size:60px;"">+</div>","null","html-keyboard-response","116","133433","0.0-2.0-0.57","fixation","","","","",""
"661","<p style='color:red;font-size:60pt;'>BLUE</p>","r","html-keyboard-response","117","134095","0.0-2.0-1.57","stroop","r","BLUE","red","Incongruent","true"
"null","<div style=""font-size:60px;"">+</div>","null","html-keyboard-response","118","135097","0.0-2.0-0.58","fixation","","","","",""
"595","<p style='color:blue;font-size:60pt;'>YELLOW</p>","b","html-keyboard-response","119","135692","0.0-2.0-1.58","stroop","b","YELLOW","blue","Incongruent","true"
"null","<div style=""font-size:60px;"">+</div>","null","html-keyboard-response","120","137695","0.0-2.0-0.59","fixation","","","","",""
"651","<p style='color:yellow;font-size:60pt;'>RED</p>","y","html-keyboard-response","121","138347","0.0-2.0-1.59","stroop","y","RED","yellow","Incongruent","true"
"null","<div style=""font-size:60px;"">+</div>","null","html-keyboard-response","122","140349","0.0-2.0-0.60","fixation","","","","",""
"606","<p style='color:yellow;font-size:60pt;'>YELLOW</p>","y","html-keyboard-response","123","140957","0.0-2.0-1.60","stroop","y","YELLOW","yellow","Congruent","true"
"null","<div style=""font-size:60px;"">+</div>","null","html-keyboard-response","124","142959","0.0-2.0-0.61","fixation","","","","",""
"810","<p style='color:green;font-size:60pt;'>BLUE</p>","g","html-keyboard-response","125","143769","0.0-2.0-1.61","stroop","g","BLUE","green","Incongruent","true"
"null","<div style=""font-size:60px;"">+</div>","null","html-keyboard-response","126","144771","0.0-2.0-0.62","fixation","","","","",""
"551","<p style='color:blue;font-size:60pt;'>RED</p>","b","html-keyboard-response","127","145322","0.0-2.0-1.62","stroop","b","RED","blue","Incongruent","true"
"null","<div style=""font-size:60px;"">+</div>","null","html-keyboard-response","128","147325","0.0-2.0-0.63","fixation","","","","",""
"697","<p style='color:red;font-size:60pt;'>RED</p>","r","html-keyboard-response","129","148022","0.0-2.0-1.63","stroop","r","RED","red","Congruent","true"
"null","<div style=""font-size:60px;"">+</div>","null","html-keyboard-response","130","149024","0.0-2.0-0.64","fixation","","","","",""
"617","<p style='color:green;font-size:60pt;'>YELLOW</p>","b","html-keyboard-response","131","149641","0.0-2.0-1.64","stroop","g","YELLOW","green","Incongruent","false"
"null","<div style=""font-size:60px;"">+</div>","null","html-keyboard-response","132","151644","0.0-2.0-0.65","fixation","","","","",""
"765","<p style='color:red;font-size:60pt;'>GREEN</p>","r","html-keyboard-response","133","152409","0.0-2.0-1.65","stroop","r","GREEN","red","Incongruent","true"
"null","<div style=""font-size:60px;"">+</div>","null","html-keyboard-response","134","154412","0.0-2.0-0.66","fixation","","","","",""
"653","<p style='color:yellow;font-size:60pt;'>YELLOW</p>","y","html-keyboard-response","135","155065","0.0-2.0-1.66","stroop","y","YELLOW","yellow","Congruent","true"
"null","<div style=""font-size:60px;"">+</div>","null","html-keyboard-response","136","156068","0.0-2.0-0.67","fixation","","","","",""
"683","<p style='color:blue;font-size:60pt;'>BLUE</p>","b","html-keyboard-response","137","156751","0.0-2.0-1.67","stroop","b","BLUE","blue","Congruent","true"
"null","<div style=""font-size:60px;"">+</div>","null","html-keyboard-response","138","157754","0.0-2.0-0.68","fixation","","","","",""
"774","<p style='color:green;font-size:60pt;'>BLUE</p>","g","html-keyboard-response","139","158529","0.0-2.0-1.68","stroop","g","BLUE","green","Incongruent","true"
"null","<div style=""font-size:60px;"">+</div>","null","html-keyboard-response","140","160532","0.0-2.0-0.69","fixation","","","","",""
"676","<p style='color:green;font-size:60pt;'>GREEN</p>","g","html-keyboard-response","141","161209","0.0-2.0-1.69","stroop","g","GREEN","green","Congruent","true"
"null","<div style=""font-size:60px;"">+</div>","null","html-keyboard-response","142","163211","0.0-2.0-0.70","fixation","","","","",""
"672","<p style='color:blue;font-size:60pt;'>GREEN</p>","b","html-keyboard-response","143","163885","0.0-2.0-1.70","stroop","b","GREEN","blue","Incongruent","true"
"null","<div style=""font-size:60px;"">+</div>","null","html-keyboard-response","144","164887","0.0-2.0-0.71","fixation","","","","",""
"751","<p style='color:blue;font-size:60pt;'>YELLOW</p>","b","html-keyboard-response","145","165640","0.0-2.0-1.71","stroop","b","YELLOW","blue","Incongruent","true"
"null","<div style=""font-size:60px;"">+</div>","null","html-keyboard-response","146","167642","0.0-2.0-0.72","fixation","","","","",""
"741","<p style='color:green;font-size:60pt;'>RED</p>","g","html-keyboard-response","147","168384","0.0-2.0-1.72","stroop","g","RED","green","Incongruent","true"
"null","<div style=""font-size:60px;"">+</div>","null","html-keyboard-response","148","169387","0.0-2.0-0.73","fixation","","","","",""
"674","<p style='color:blue;font-size:60pt;'>RED</p>","b","html-keyboard-response","149","170061","0.0-2.0-1.73","stroop","b","RED","blue","Incongruent","true"
"null","<div style=""font-size:60px;"">+</div>","null","html-keyboard-response","150","172063","0.0-2.0-0.74","fixation","","","","",""
"774","<p style='color:red;font-size:60pt;'>RED</p>","r","html-keyboard-response","151","172839","0.0-2.0-1.74","stroop","r","RED","red","Congruent","true"
"null","<div style=""font-size:60px;"">+</div>","null","html-keyboard-response","152","174841","0.0-2.0-0.75","fixation","","","","",""
"629","<p style='color:red;font-size:60pt;'>YELLOW</p>","r","html-keyboard-response","153","175472","0.0-2.0-1.75","stroop","r","YELLOW","red","Incongruent","true"
"null","<div style=""font-size:60px;"">+</div>","null","html-keyboard-response","154","177474","0.0-2.0-0.76","fixation","","","","",""
"585","<p style='color:red;font-size:60pt;'>BLUE</p>","r","html-keyboard-response","155","178060","0.0-2.0-1.76","stroop","r","BLUE","red","Incongruent","true"
"null","<div style=""font-size:60px;"">+</div>","null","html-keyboard-response","156","180062","0.0-2.0-0.77","fixation","","","","",""
"1079","<p style='color:yellow;font-size:60pt;'>GREEN</p>","y","html-keyboard-response","157","181143","0.0-2.0-1.77","stroop","y","GREEN","yellow","Incongruent","true"
"null","<div style=""font-size:60px;"">+</div>","null","html-keyboard-response","158","183145","0.0-2.0-0.78","fixation","","","","",""
"718","<p style='color:yellow;font-size:60pt;'>RED</p>","y","html-keyboard-response","159","183865","0.0-2.0-1.78","stroop","y","RED","yellow","Incongruent","true"
"null","<div style=""font-size:60px;"">+</div>","null","html-keyboard-response","160","184867","0.0-2.0-0.79","fixation","","","","",""
"526","<p style='color:yellow;font-size:60pt;'>BLUE</p>","y","html-keyboard-response","161","185395","0.0-2.0-1.79","stroop","y","BLUE","yellow","Incongruent","true"
